Folder: dv4c/XRD data

Note: README.md
# dv4c
Data Visualization for Chemists

File: XRD data.csv
2theta,intensity,sample
10.0,-0.000463342,A
10.601,0.00463001,A
11.202,0.00296173,A
11.803,0.00766004,A
12.404,0.00527454,A
13.005,0.0125935,A
13.606,0.000513879,A
14.207,-0.00558247,A
14.808,-0.00528188,A
15.409,0.00217834,A
16.01,6.46318e-05,A
16.611,-0.00158642,A
17.212,0.00896515,A
17.813,0.00154835,A
18.414,-0.00629174,A
19.015,0.00314879,A
19.616,-0.00109229,A
20.217,0.00304608,A
20.818,0.0110887,A
21.419,-0.00772225,A
22.02,0.00947348,A
22.621,-0.00410719,A
23.222,-0.0042995,A
23.823,-0.00429881,A
24.424,0.00699617,A
25.025,-0.000676759,A
25.626,0.00681323,A
26.227,-0.00104451,A
26.828,0.00176567,A
27.429,0.00422444,A
28.0301,0.00456307,A
28.6311,0.00303499,A
29.2321,0.00280238,A
29.8331,0.00176037,A
30.4341,-0.00626014,A
31.0351,0.150559,A
31.6361,-0.000977083,A
32.2371,0.00101625,A
32.8381,0.00046887,A
33.4391,-0.00439261,A
34.0401,-0.00307016,A
34.6411,-0.00697911,A
35.2421,-0.00611367,A
35.8431,-0.00828691,A
36.4441,0.0133291,A
37.0451,0.00603751,A
37.6461,-0.00509348,A
38.2471,0.000986782,A
38.8481,-0.00379247,A
39.4491,-0.000789696,A
40.0501,-0.00027146,A
40.6511,0.349742,A
41.2521,-0.00104366,A
41.8531,0.00230733,A
42.4541,-0.00138422,A
43.0551,0.00215491,A
43.6561,0.00855809,A
44.2571,-0.00106339,A
44.8581,-0.00259369,A
45.4591,0.00256024,A
46.0601,-0.00612453,A
46.6611,-0.00123949,A
47.2621,-0.0024124,A
47.8631,0.00758457,A
48.4641,0.002378,A
49.0651,0.00445597,A
49.6661,0.00177097,A
50.2671,-0.0125517,A
50.8681,0.000497086,A
51.4691,0.00782178,A
52.0701,-0.00737793,A
52.6711,-0.00261476,A
53.2721,-0.00258677,A
53.8731,-0.00271188,A
54.4741,-0.00163079,A
55.0751,0.000401396,A
55.6761,5.46382e-05,A
56.2771,0.00510598,A
56.8781,0.000540007,A
57.4791,-0.00326213,A
58.0801,-0.0171004,A
58.6811,0.00021607,A
59.2821,0.00348738,A
59.8831,-0.00125838,A
60.4841,0.00236834,A
61.0851,9.57528e-05,A
61.6861,-0.00459936,A
62.2871,-8.75068e-05,A
62.8881,0.00515533,A
63.4891,0.00731468,A
64.0902,0.00543842,A
64.6912,-0.00956065,A
65.2922,-0.00193101,A
65.8932,0.0007938,A
66.4942,-0.00112939,A
67.0952,-0.00115022,A
67.6962,0.0017517,A
68.2972,0.0019927,A
68.8982,-0.00457726,A
69.4992,0.00190687,A
10.0,-0.00374933,B
10.601,0.00345632,B
11.202,0.00772704,B
11.803,-0.00201072,B
12.404,-0.000823143,B
13.005,-0.004109,B
13.606,0.000396036,B
14.207,0.00213454,B
14.808,-0.00470799,B
15.409,-0.0019626,B
16.01,-0.00443998,B
16.611,-0.00150284,B
17.212,0.00486954,B
17.813,-0.00762352,B
18.414,-0.00107258,B
19.015,-0.000735718,B
19.616,-0.00368828,B
20.217,0.10606,B
20.818,0.00387804,B
21.419,-0.00354345,B
22.02,-0.00345996,B
22.621,-0.000206892,B
23.222,0.00423907,B
23.823,0.00368234,B
24.424,0.00159295,B
25.025,0.00420728,B
25.626,-0.00924151,B
26.227,-0.00330217,B
26.828,-0.00544963,B
27.429,-0.00477574,B
28.0301,0.00202319,B
28.6311,0.00880586,B
29.2321,-0.00706696,B
29.8331,0.00221301,B
30.4341,0.00574049,B
31.0351,0.016811,B
31.6361,-0.0066451,B
32.2371,-0.00023281,B
32.8381,-0.00985314,B
33.4391,-0.00343162,B
34.0401,0.00622252,B
34.6411,0.00685222,B
35.2421,-0.000582388,B
35.8431,0.000390826,B
36.4441,0.00475681,B
37.0451,-0.00378109,B
37.6461,0.000548867,B
38.2471,0.0116366,B
38.8481,-0.00185805,B
39.4491,0.00262762,B
40.0501,0.00383102,B
40.6511,0.00101491,B
41.2521,0.00227996,B
41.8531,-0.00599148,B
42.4541,0.000494686,B
43.0551,0.00107202,B
43.6561,-0.00587061,B
44.2571,0.00634573,B
44.8581,-0.00358673,B
45.4591,0.00614166,B
46.0601,1.0,B
46.6611,-0.00763103,B
47.2621,0.0106419,B
47.8631,-0.00760294,B
48.4641,0.00186254,B
49.0651,-0.0015905,B
49.6661,0.00494909,B
50.2671,0.000469871,B
50.8681,0.000975315,B
51.4691,-0.00253826,B
52.0701,0.00363282,B
52.6711,0.00425514,B
53.2721,-0.00125225,B
53.8731,0.0012868,B
54.4741,-0.00576463,B
55.0751,0.00234592,B
55.6761,-0.00603865,B
56.2771,0.00529501,B
56.8781,0.00502345,B
57.4791,0.00323629,B
58.0801,0.0040397,B
58.6811,0.00670765,B
59.2821,-0.00692793,B
59.8831,0.00518266,B
60.4841,0.000595742,B
61.0851,-0.00273047,B
61.6861,-0.00599598,B
62.2871,0.00402784,B
62.8881,0.00299137,B
63.4891,-0.00447307,B
64.0902,-0.00136108,B
64.6912,-0.00207431,B
65.2922,-0.00384753,B
65.8932,-7.05739e-05,B
66.4942,-0.00264682,B
67.0952,0.00271665,B
67.6962,-0.00432304,B
68.2972,0.00958439,B
68.8982,-0.00160416,B
69.4992,-0.000348884,B
10.0,-0.00077085,mix
10.601,0.00770282,mix
11.202,0.00492735,mix
11.803,0.0127438,mix
12.404,0.00877512,mix
13.005,0.0209515,mix
13.606,0.000854927,mix
14.207,-0.00928741,mix
14.808,-0.00878732,mix
15.409,0.00362404,mix
16.01,0.000107526,mix
16.611,-0.00263928,mix
17.212,0.00433465,mix
17.813,-0.00240937,mix
18.414,-0.0104674,mix
19.015,0.00523855,mix
19.616,-0.00181722,mix
20.217,0.080322,mix
20.818,0.0185124,mix
21.419,-0.0128473,mix
22.02,0.0157608,mix
22.621,-0.00683302,mix
23.222,-0.00715296,mix
23.823,-0.00715181,mix
24.424,0.0116393,mix
25.025,-0.00112591,mix
25.626,0.011335,mix
26.227,-0.00173772,mix
26.828,0.00293751,mix
27.429,0.00702809,mix
28.0301,0.00759145,mix
28.6311,0.00504924,mix
29.2321,0.00466225,mix
29.8331,0.00292867,mix
30.4341,-0.0102495,mix
31.0351,0.155948,mix
31.6361,-0.00165537,mix
32.2371,0.00169071,mix
32.8381,0.000780046,mix
33.4391,-0.00730786,mix
34.0401,-0.00510775,mix
34.6411,-0.011611,mix
35.2421,-0.0101711,mix
35.8431,-0.0137867,mix
36.4441,0.0221753,mix
37.0451,0.0100444,mix
37.6461,-0.00847389,mix
38.2471,0.00164168,mix
38.8481,-0.00630943,mix
39.4491,-0.0013138,mix
40.0501,-0.000451694,mix
40.6511,0.347028,mix
41.2521,-0.00173631,mix
41.8531,0.00383864,mix
42.4541,-0.00230288,mix
43.0551,0.00358506,mix
43.6561,0.0142379,mix
44.2571,-0.00176913,mix
44.8581,-0.00431506,mix
45.4591,0.00425941,mix
46.0601,0.73107,mix
46.6611,-0.002062,mix
47.2621,-0.00401344,mix
47.8631,0.0126182,mix
48.4641,0.00395621,mix
49.0651,0.00741327,mix
49.6661,0.00294631,mix
50.2671,-0.0208819,mix
50.8681,0.000826989,mix
51.4691,0.0130129,mix
52.0701,-0.0122745,mix
52.6711,-0.0043501,mix
53.2721,-0.00430354,mix
53.8731,-0.00451168,mix
54.4741,-0.0027131,mix
55.0751,0.000667792,mix
55.6761,9.09002e-05,mix
56.2771,0.00849469,mix
56.8781,0.000898395,mix
57.4791,-0.00542713,mix
58.0801,-0.0284495,mix
58.6811,0.000359469,mix
59.2821,0.00580187,mix
59.8831,-0.00209354,mix
60.4841,0.00394015,mix
61.0851,0.000159301,mix
61.6861,-0.00765183,mix
62.2871,-0.000145583,mix
62.8881,0.00857679,mix
63.4891,0.0121692,mix
64.0902,0.00904775,mix
64.6912,-0.0159058,mix
65.2922,-0.00321258,mix
65.8932,0.00132062,mix
66.4942,-0.00187893,mix
67.0952,-0.00191359,mix
67.6962,0.00291425,mix
68.2972,0.00331521,mix
68.8982,-0.00761507,mix
69.4992,0.0031724,mix
70.0,0.00320533,mix